File: PEAD.csv
/////////////////////////////////////////////////////////////////////////////////
/// Profile Data Ascii Dump (XRD)                                             ///
/////////////////////////////////////////////////////////////////////////////////

  Group     : 2019_03_13_Fernanda
  Data      : PEAD
  File Name : PEAD.RAW

# Profile Datafile
          comment             =
          date & time         = 03-13-19 10:20:50

# Measurement Condition
    X-ray tube
          target              = Cu
          voltage             = 40.0 (kV)
          current             = 40.0 (mA)
    Slits
          divergence slit     = 1.00000 (mm)
          scatter slit        = 1.00000 (mm)
          receiving slit      = 0.30000 (mm)
    Scanning
          drive axis          = Theta-2Theta
          scan range          =   15.000 -   40.000
          scan mode           = Continuous Scan
          scan speed          =   2.0000 (deg/min)
          sampling pitch      =   0.0200 (deg)
          preset time         =   0.60 (sec)

# Data      [ Total No. = 1251 ]
  <2Theta>   <   I   >
    15.0000        74
    15.0200        80
    15.0400        94
    15.0600       104
    15.0800        82
    15.1000        92
    15.1200        84
    15.1400        94
    15.1600        78
    15.1800        90
    15.2000       104
    15.2200       110
    15.2400       102
    15.2600        96
    15.2800        82
    15.3000       100
    15.3200       118
    15.3400        92
    15.3600       104
    15.3800        98
    15.4000       104
    15.4200        88
    15.4400        78
    15.4600       110
    15.4800        98
    15.5000        86
    15.5200        88
    15.5400        88
    15.5600        94
    15.5800       106
    15.6000        90
    15.6200       100
    15.6400        82
    15.6600        94
    15.6800       108
    15.7000        90
    15.7200        92
    15.7400        96
    15.7600        96
    15.7800       100
    15.8000       124
    15.8200       120
    15.8400       108
    15.8600       114
    15.8800       112
    15.9000       106
    15.9200       120
    15.9400       106
    15.9600       100
    15.9800       108
    16.0000       116
    16.0200       106
    16.0400       134
    16.0600       124
    16.0800       112
    16.1000       100
    16.1200       120
    16.1400       118
    16.1600       128
    16.1800       116
    16.2000       134
    16.2200       120
    16.2400       130
    16.2600       142
    16.2800       126
    16.3000       108
    16.3200       122
    16.3400       128
    16.3600       132
    16.3800       126
    16.4000       132
    16.4200       118
    16.4400       158
    16.4600       128
    16.4800       126
    16.5000       130
    16.5200       134
    16.5400       142
    16.5600       122
    16.5800       128
    16.6000       122
    16.6200       118
    16.6400       128
    16.6600       122
    16.6800       150
    16.7000       162
    16.7200       130
    16.7400       134
    16.7600       156
    16.7800       146
    16.8000       154
    16.8200       170
    16.8400       130
    16.8600       174
    16.8800       154
    16.9000       140
    16.9200       144
    16.9400       152
    16.9600       164
    16.9800       152
    17.0000       160
    17.0200       168
    17.0400       166
    17.0600       130
    17.0800       150
    17.1000       150
    17.1200       160
    17.1400       168
    17.1600       134
    17.1800       154
    17.2000       172
    17.2200       160
    17.2400       170
    17.2600       162
    17.2800       172
    17.3000       176
    17.3200       150
    17.3400       182
    17.3600       170
    17.3800       156
    17.4000       174
    17.4200       174
    17.4400       158
    17.4600       196
    17.4800       184
    17.5000       166
    17.5200       190
    17.5400       176
    17.5600       198
    17.5800       182
    17.6000       204
    17.6200       184
    17.6400       162
    17.6600       202
    17.6800       206
    17.7000       194
    17.7200       204
    17.7400       180
    17.7600       206
    17.7800       176
    17.8000       214
    17.8200       220
    17.8400       196
    17.8600       200
    17.8800       202
    17.9000       204
    17.9200       228
    17.9400       200
    17.9600       218
    17.9800       212
    18.0000       222
    18.0200       210
    18.0400       234
    18.0600       198
    18.0800       236
    18.1000       194
    18.1200       230
    18.1400       224
    18.1600       228
    18.1800       252
    18.2000       238
    18.2200       218
    18.2400       234
    18.2600       216
    18.2800       266
    18.3000       244
    18.3200       242
    18.3400       232
    18.3600       248
    18.3800       230
    18.4000       276
    18.4200       240
    18.4400       258
    18.4600       250
    18.4800       246
    18.5000       280
    18.5200       260
    18.5400       264
    18.5600       250
    18.5800       280
    18.6000       248
    18.6200       274
    18.6400       258
    18.6600       290
    18.6800       294
    18.7000       272
    18.7200       286
    18.7400       268
    18.7600       272
    18.7800       282
    18.8000       324
    18.8200       290
    18.8400       282
    18.8600       272
    18.8800       272
    18.9000       288
    18.9200       306
    18.9400       308
    18.9600       310
    18.9800       318
    19.0000       308
    19.0200       316
    19.0400       310
    19.0600       328
    19.0800       324
    19.1000       320
    19.1200       344
    19.1400       344
    19.1600       346
    19.1800       326
    19.2000       346
    19.2200       346
    19.2400       314
    19.2600       330
    19.2800       324
    19.3000       326
    19.3200       344
    19.3400       318
    19.3600       354
    19.3800       334
    19.4000       360
    19.4200       344
    19.4400       340
    19.4600       330
    19.4800       334
    19.5000       392
    19.5200       360
    19.5400       360
    19.5600       362
    19.5800       352
    19.6000       372
    19.6200       386
    19.6400       354
    19.6600       366
    19.6800       358
    19.7000       372
    19.7200       332
    19.7400       338
    19.7600       316
    19.7800       332
    19.8000       384
    19.8200       334
    19.8400       370
    19.8600       372
    19.8800       386
    19.9000       390
    19.9200       362
    19.9400       410
    19.9600       414
    19.9800       398
    20.0000       406
    20.0200       428
    20.0400       450
    20.0600       460
    20.0800       516
    20.1000       486
    20.1200       490
    20.1400       532
    20.1600       584
    20.1800       612
    20.2000       616
    20.2200       662
    20.2400       676
    20.2600       680
    20.2800       682
    20.3000       780
    20.3200       818
    20.3400       780
    20.3600       856
    20.3800       910
    20.4000       938
    20.4200       994
    20.4400      1016
    20.4600      1078
    20.4800      1118
    20.5000      1142
    20.5200      1198
    20.5400      1172
    20.5600      1188
    20.5800      1168
    20.6000      1126
    20.6200      1186
    20.6400      1112
    20.6600      1098
    20.6800      1090
    20.7000      1066
    20.7200      1078
    20.7400      1052
    20.7600      1024
    20.7800      1024
    20.8000      1054
    20.8200      1066
    20.8400      1130
    20.8600      1082
    20.8800      1084
    20.9000      1140
    20.9200      1278
    20.9400      1280
    20.9600      1268
    20.9800      1238
    21.0000      1270
    21.0200      1286
    21.0400      1348
    21.0600      1370
    21.0800      1492
    21.1000      1522
    21.1200      1642
    21.1400      1652
    21.1600      1750
    21.1800      1850
    21.2000      2020
    21.2200      2036
    21.2400      2160
    21.2600      2356
    21.2800      2462
    21.3000      2594
    21.3200      2766
    21.3400      2948
    21.3600      3078
    21.3800      3056
    21.4000      3486
    21.4200      3446
    21.4400      3582
    21.4600      3632
    21.4800      3644
    21.5000      3584
    21.5200      3416
    21.5400      3262
    21.5600      2986
    21.5800      2800
    21.6000      2414
    21.6200      2078
    21.6400      1982
    21.6600      1568
    21.6800      1378
    21.7000      1264
    21.7200      1058
    21.7400       994
    21.7600       920
    21.7800       832
    21.8000       730
    21.8200       642
    21.8400       648
    21.8600       608
    21.8800       500
    21.9000       492
    21.9200       476
    21.9400       442
    21.9600       378
    21.9800       380
    22.0000       392
    22.0200       350
    22.0400       352
    22.0600       298
    22.0800       304
    22.1000       312
    22.1200       318
    22.1400       304
    22.1600       270
    22.1800       290
    22.2000       264
    22.2200       308
    22.2400       280
    22.2600       304
    22.2800       298
    22.3000       256
    22.3200       284
    22.3400       256
    22.3600       280
    22.3800       258
    22.4000       266
    22.4200       276
    22.4400       298
    22.4600       322
    22.4800       302
    22.5000       292
    22.5200       276
    22.5400       302
    22.5600       324
    22.5800       298
    22.6000       302
    22.6200       328
    22.6400       356
    22.6600       378
    22.6800       370
    22.7000       366
    22.7200       366
    22.7400       368
    22.7600       388
    22.7800       358
    22.8000       340
    22.8200       376
    22.8400       346
    22.8600       378
    22.8800       354
    22.9000       374
    22.9200       370
    22.9400       346
    22.9600       326
    22.9800       348
    23.0000       364
    23.0200       384
    23.0400       334
    23.0600       342
    23.0800       350
    23.1000       350
    23.1200       372
    23.1400       362
    23.1600       356
    23.1800       380
    23.2000       382
    23.2200       364
    23.2400       348
    23.2600       366
    23.2800       402
    23.3000       402
    23.3200       376
    23.3400       358
    23.3600       348
    23.3800       402
    23.4000       406
    23.4200       428
    23.4400       432
    23.4600       430
    23.4800       422
    23.5000       472
    23.5200       494
    23.5400       496
    23.5600       546
    23.5800       580
    23.6000       556
    23.6200       620
    23.6400       596
    23.6600       630
    23.6800       658
    23.7000       652
    23.7200       726
    23.7400       678
    23.7600       780
    23.7800       748
    23.8000       730
    23.8200       796
    23.8400       780
    23.8600       782
    23.8800       696
    23.9000       688
    23.9200       654
    23.9400       618
    23.9600       582
    23.9800       542
    24.0000       496
    24.0200       466
    24.0400       428
    24.0600       370
    24.0800       334
    24.1000       324
    24.1200       290
    24.1400       290
    24.1600       258
    24.1800       270
    24.2000       234
    24.2200       202
    24.2400       198
    24.2600       194
    24.2800       182
    24.3000       164
    24.3200       156
    24.3400       170
    24.3600       164
    24.3800       174
    24.4000       148
    24.4200       140
    24.4400       122
    24.4600       130
    24.4800       130
    24.5000       138
    24.5200       110
    24.5400       132
    24.5600       118
    24.5800       128
    24.6000       110
    24.6200       122
    24.6400       118
    24.6600        88
    24.6800       114
    24.7000       116
    24.7200       100
    24.7400       102
    24.7600        78
    24.7800       102
    24.8000       108
    24.8200        88
    24.8400        94
    24.8600       104
    24.8800        98
    24.9000        96
    24.9200       108
    24.9400        86
    24.9600        90
    24.9800        96
    25.0000        74
    25.0200       104
    25.0400        90
    25.0600       104
    25.0800       102
    25.1000       114
    25.1200        94
    25.1400        96
    25.1600        86
    25.1800       106
    25.2000        70
    25.2200        84
    25.2400        98
    25.2600        94
    25.2800        82
    25.3000        88
    25.3200       102
    25.3400        72
    25.3600        84
    25.3800        84
    25.4000        78
    25.4200       100
    25.4400        76
    25.4600        92
    25.4800       112
    25.5000        76
    25.5200        70
    25.5400        96
    25.5600        70
    25.5800        84
    25.6000        66
    25.6200        78
    25.6400        82
    25.6600        86
    25.6800        74
    25.7000        68
    25.7200        70
    25.7400        84
    25.7600        78
    25.7800        76
    25.8000        70
    25.8200        80
    25.8400        62
    25.8600        86
    25.8800        72
    25.9000        70
    25.9200        66
    25.9400        68
    25.9600        76
    25.9800        72
    26.0000        82
    26.0200        64
    26.0400        62
    26.0600        84
    26.0800        70
    26.1000        74
    26.1200        60
    26.1400        78
    26.1600        68
    26.1800        66
    26.2000        78
    26.2200        68
    26.2400        64
    26.2600        54
    26.2800        76
    26.3000        72
    26.3200        54
    26.3400        74
    26.3600        66
    26.3800        68
    26.4000        72
    26.4200        70
    26.4400        76
    26.4600        60
    26.4800        68
    26.5000        64
    26.5200        64
    26.5400        80
    26.5600        60
    26.5800        66
    26.6000        58
    26.6200        54
    26.6400        56
    26.6600        68
    26.6800        64
    26.7000        82
    26.7200        72
    26.7400        54
    26.7600        62
    26.7800        58
    26.8000        84
    26.8200        58
    26.8400        62
    26.8600        60
    26.8800        56
    26.9000        68
    26.9200        66
    26.9400        60
    26.9600        64
    26.9800        62
    27.0000        68
    27.0200        60
    27.0400        52
    27.0600        60
    27.0800        66
    27.1000        74
    27.1200        62
    27.1400        64
    27.1600        62
    27.1800        58
    27.2000        58
    27.2200        68
    27.2400        54
    27.2600        64
    27.2800        60
    27.3000        70
    27.3200        58
    27.3400        56
    27.3600        62
    27.3800        76
    27.4000        68
    27.4200        52
    27.4400        52
    27.4600        58
    27.4800        60
    27.5000        56
    27.5200        66
    27.5400        50
    27.5600        48
    27.5800        54
    27.6000        56
    27.6200        54
    27.6400        60
    27.6600        52
    27.6800        60
    27.7000        60
    27.7200        58
    27.7400        60
    27.7600        54
    27.7800        66
    27.8000        62
    27.8200        42
    27.8400        72
    27.8600        54
    27.8800        68
    27.9000        46
    27.9200        56
    27.9400        40
    27.9600        74
    27.9800        50
    28.0000        54
    28.0200        56
    28.0400        70
    28.0600        60
    28.0800        46
    28.1000        54
    28.1200        42
    28.1400        60
    28.1600        68
    28.1800        64
    28.2000        56
    28.2200        52
    28.2400        56
    28.2600        64
    28.2800        60
    28.3000        48
    28.3200        54
    28.3400        60
    28.3600        60
    28.3800        64
    28.4000        58
    28.4200        52
    28.4400        44
    28.4600        66
    28.4800        68
    28.5000        52
    28.5200        52
    28.5400        60
    28.5600        64
    28.5800        66
    28.6000        58
    28.6200        52
    28.6400        60
    28.6600        68
    28.6800        46
    28.7000        54
    28.7200        62
    28.7400        60
    28.7600        66
    28.7800        40
    28.8000        48
    28.8200        56
    28.8400        54
    28.8600        68
    28.8800        82
    28.9000        58
    28.9200        56
    28.9400        70
    28.9600        54
    28.9800        56
    29.0000        54
    29.0200        60
    29.0400        56
    29.0600        80
    29.0800        62
    29.1000        60
    29.1200        50
    29.1400        68
    29.1600        52
    29.1800        74
    29.2000        64
    29.2200        62
    29.2400        52
    29.2600        70
    29.2800        46
    29.3000        66
    29.3200        76
    29.3400        68
    29.3600        68
    29.3800        50
    29.4000        66
    29.4200        60
    29.4400        60
    29.4600        74
    29.4800        66
    29.5000        76
    29.5200        68
    29.5400        76
    29.5600        64
    29.5800        72
    29.6000        86
    29.6200        70
    29.6400        66
    29.6600        68
    29.6800        88
    29.7000        82
    29.7200        72
    29.7400        82
    29.7600        62
    29.7800        84
    29.8000        92
    29.8200        90
    29.8400        70
    29.8600        86
    29.8800        86
    29.9000        88
    29.9200        98
    29.9400       104
    29.9600       110
    29.9800       100
    30.0000        78
    30.0200       102
    30.0400        84
    30.0600        76
    30.0800        92
    30.1000       112
    30.1200        82
    30.1400        72
    30.1600        78
    30.1800        70
    30.2000        82
    30.2200        56
    30.2400        80
    30.2600        68
    30.2800        66
    30.3000        62
    30.3200        68
    30.3400        70
    30.3600        48
    30.3800        68
    30.4000        56
    30.4200        66
    30.4400        70
    30.4600        50
    30.4800        44
    30.5000        64
    30.5200        52
    30.5400        50
    30.5600        50
    30.5800        54
    30.6000        42
    30.6200        50
    30.6400        52
    30.6600        34
    30.6800        52
    30.7000        58
    30.7200        62
    30.7400        56
    30.7600        68
    30.7800        48
    30.8000        52
    30.8200        52
    30.8400        44
    30.8600        52
    30.8800        60
    30.9000        54
    30.9200        50
    30.9400        52
    30.9600        60
    30.9800        46
    31.0000        46
    31.0200        54
    31.0400        50
    31.0600        48
    31.0800        66
    31.1000        56
    31.1200        42
    31.1400        48
    31.1600        52
    31.1800        44
    31.2000        54
    31.2200        60
    31.2400        60
    31.2600        48
    31.2800        48
    31.3000        58
    31.3200        56
    31.3400        50
    31.3600        56
    31.3800        54
    31.4000        58
    31.4200        50
    31.4400        40
    31.4600        52
    31.4800        52
    31.5000        58
    31.5200        42
    31.5400        48
    31.5600        40
    31.5800        48
    31.6000        56
    31.6200        46
    31.6400        32
    31.6600        42
    31.6800        40
    31.7000        44
    31.7200        46
    31.7400        58
    31.7600        52
    31.7800        46
    31.8000        54
    31.8200        56
    31.8400        58
    31.8600        52
    31.8800        54
    31.9000        48
    31.9200        44
    31.9400        44
    31.9600        60
    31.9800        42
    32.0000        52
    32.0200        40
    32.0400        50
    32.0600        68
    32.0800        50
    32.1000        54
    32.1200        46
    32.1400        50
    32.1600        52
    32.1800        54
    32.2000        44
    32.2200        46
    32.2400        42
    32.2600        50
    32.2800        66
    32.3000        34
    32.3200        56
    32.3400        48
    32.3600        42
    32.3800        38
    32.4000        48
    32.4200        66
    32.4400        44
    32.4600        44
    32.4800        56
    32.5000        44
    32.5200        60
    32.5400        48
    32.5600        50
    32.5800        40
    32.6000        52
    32.6200        64
    32.6400        48
    32.6600        44
    32.6800        44
    32.7000        42
    32.7200        56
    32.7400        54
    32.7600        66
    32.7800        52
    32.8000        50
    32.8200        58
    32.8400        56
    32.8600        52
    32.8800        54
    32.9000        54
    32.9200        56
    32.9400        40
    32.9600        54
    32.9800        62
    33.0000        52
    33.0200        48
    33.0400        46
    33.0600        58
    33.0800        58
    33.1000        46
    33.1200        58
    33.1400        46
    33.1600        48
    33.1800        56
    33.2000        48
    33.2200        48
    33.2400        54
    33.2600        56
    33.2800        56
    33.3000        44
    33.3200        56
    33.3400        60
    33.3600        40
    33.3800        62
    33.4000        42
    33.4200        54
    33.4400        50
    33.4600        40
    33.4800        52
    33.5000        54
    33.5200        48
    33.5400        42
    33.5600        48
    33.5800        34
    33.6000        44
    33.6200        48
    33.6400        60
    33.6600        58
    33.6800        52
    33.7000        54
    33.7200        64
    33.7400        54
    33.7600        44
    33.7800        44
    33.8000        58
    33.8200        64
    33.8400        42
    33.8600        68
    33.8800        56
    33.9000        52
    33.9200        64
    33.9400        48
    33.9600        34
    33.9800        54
    34.0000        60
    34.0200        66
    34.0400        60
    34.0600        66
    34.0800        60
    34.1000        72
    34.1200        56
    34.1400        56
    34.1600        64
    34.1800        74
    34.2000        70
    34.2200        58
    34.2400        56
    34.2600        70
    34.2800        72
    34.3000        76
    34.3200        76
    34.3400        70
    34.3600        90
    34.3800        74
    34.4000        72
    34.4200        66
    34.4400        76
    34.4600        72
    34.4800        76
    34.5000        88
    34.5200        76
    34.5400        80
    34.5600        72
    34.5800        74
    34.6000        70
    34.6200        92
    34.6400        74
    34.6600        74
    34.6800        62
    34.7000        84
    34.7200        66
    34.7400        76
    34.7600        92
    34.7800        70
    34.8000        54
    34.8200        84
    34.8400        68
    34.8600        68
    34.8800        74
    34.9000        70
    34.9200        74
    34.9400        66
    34.9600        58
    34.9800        64
    35.0000        64
    35.0200        70
    35.0400        80
    35.0600        72
    35.0800        66
    35.1000        74
    35.1200        82
    35.1400        52
    35.1600        80
    35.1800        74
    35.2000        66
    35.2200        72
    35.2400        88
    35.2600        82
    35.2800        72
    35.3000        74
    35.3200        66
    35.3400        66
    35.3600        86
    35.3800        78
    35.4000        76
    35.4200        74
    35.4400        74
    35.4600        86
    35.4800        70
    35.5000        76
    35.5200        86
    35.5400        88
    35.5600        70
    35.5800        70
    35.6000        64
    35.6200        86
    35.6400        80
    35.6600        94
    35.6800       100
    35.7000        96
    35.7200       100
    35.7400        80
    35.7600       112
    35.7800       112
    35.8000       118
    35.8200       118
    35.8400       116
    35.8600       118
    35.8800       130
    35.9000       120
    35.9200       136
    35.9400       140
    35.9600       128
    35.9800       154
    36.0000       150
    36.0200       184
    36.0400       154
    36.0600       168
    36.0800       158
    36.1000       174
    36.1200       178
    36.1400       176
    36.1600       172
    36.1800       170
    36.2000       166
    36.2200       178
    36.2400       162
    36.2600       180
    36.2800       162
    36.3000       166
    36.3200       154
    36.3400       122
    36.3600       140
    36.3800       116
    36.4000       140
    36.4200       122
    36.4400       104
    36.4600       104
    36.4800        96
    36.5000       104
    36.5200        74
    36.5400        86
    36.5600        90
    36.5800        82
    36.6000        78
    36.6200        72
    36.6400        82
    36.6600        68
    36.6800        80
    36.7000        70
    36.7200        58
    36.7400        68
    36.7600        60
    36.7800        76
    36.8000        68
    36.8200        74
    36.8400        78
    36.8600        90
    36.8800        74
    36.9000        66
    36.9200        68
    36.9400        58
    36.9600        52
    36.9800        68
    37.0000        64
    37.0200        62
    37.0400        66
    37.0600        74
    37.0800        58
    37.1000        64
    37.1200        64
    37.1400        58
    37.1600        60
    37.1800        74
    37.2000        60
    37.2200        60
    37.2400        62
    37.2600        58
    37.2800        54
    37.3000        60
    37.3200        70
    37.3400        64
    37.3600        62
    37.3800        82
    37.4000        60
    37.4200        54
    37.4400        78
    37.4600        60
    37.4800        76
    37.5000        64
    37.5200        52
    37.5400        72
    37.5600        62
    37.5800        62
    37.6000        60
    37.6200        80
    37.6400        78
    37.6600        78
    37.6800        70
    37.7000        82
    37.7200        74
    37.7400        66
    37.7600        72
    37.7800        76
    37.8000        84
    37.8200        76
    37.8400        88
    37.8600        76
    37.8800        88
    37.9000        76
    37.9200        78
    37.9400        82
    37.9600        78
    37.9800        86
    38.0000        74
    38.0200        82
    38.0400        80
    38.0600        86
    38.0800        82
    38.1000        78
    38.1200        68
    38.1400        82
    38.1600        84
    38.1800        82
    38.2000        72
    38.2200        90
    38.2400       102
    38.2600        90
    38.2800        78
    38.3000        68
    38.3200        94
    38.3400        94
    38.3600        82
    38.3800        90
    38.4000        80
    38.4200        92
    38.4400        92
    38.4600        80
    38.4800        88
    38.5000        94
    38.5200        82
    38.5400        76
    38.5600        82
    38.5800        70
    38.6000        76
    38.6200        82
    38.6400        80
    38.6600        76
    38.6800        84
    38.7000        78
    38.7200        66
    38.7400       104
    38.7600        88
    38.7800        86
    38.8000        92
    38.8200        88
    38.8400        82
    38.8600        96
    38.8800        90
    38.9000        70
    38.9200        86
    38.9400        82
    38.9600        96
    38.9800        92
    39.0000        86
    39.0200        94
    39.0400       106
    39.0600        78
    39.0800        96
    39.1000        86
    39.1200       104
    39.1400        88
    39.1600        98
    39.1800       114
    39.2000        94
    39.2200        90
    39.2400        86
    39.2600       100
    39.2800        98
    39.3000       106
    39.3200       104
    39.3400       122
    39.3600       110
    39.3800       110
    39.4000       118
    39.4200       118
    39.4400       116
    39.4600       146
    39.4800       124
    39.5000       138
    39.5200       134
    39.5400        94
    39.5600       116
    39.5800       136
    39.6000       152
    39.6200       146
    39.6400       144
    39.6600       136
    39.6800       140
    39.7000       140
    39.7200       126
    39.7400       132
    39.7600       146
    39.7800       132
    39.8000       128
    39.8200       116
    39.8400       114
    39.8600       120
    39.8800       134
    39.9000       110
    39.9200       110
    39.9400       114
    39.9600       102
    39.9800       120
    40.0000       110