File: PP.csv
/////////////////////////////////////////////////////////////////////////////////
/// Profile Data Ascii Dump (XRD)                                             ///
/////////////////////////////////////////////////////////////////////////////////

  Group     : 2019_03_13_Fernanda
  Data      : PP
  File Name : PP.RAW

# Profile Datafile
          comment             =
          date & time         = 03-13-19 10:47:29

# Measurement Condition
    X-ray tube
          target              = Cu
          voltage             = 40.0 (kV)
          current             = 40.0 (mA)
    Slits
          divergence slit     = 1.00000 (mm)
          scatter slit        = 1.00000 (mm)
          receiving slit      = 0.30000 (mm)
    Scanning
          drive axis          = Theta-2Theta
          scan range          =   15.000 -   40.000
          scan mode           = Continuous Scan
          scan speed          =   2.0000 (deg/min)
          sampling pitch      =   0.0200 (deg)
          preset time         =   0.60 (sec)

# Data      [ Total No. = 1251 ]
  <2Theta>   <   I   >
    15.0000       306
    15.0200       278
    15.0400       278
    15.0600       314
    15.0800       268
    15.1000       312
    15.1200       322
    15.1400       302
    15.1600       296
    15.1800       342
    15.2000       306
    15.2200       334
    15.2400       302
    15.2600       358
    15.2800       334
    15.3000       330
    15.3200       338
    15.3400       330
    15.3600       328
    15.3800       344
    15.4000       320
    15.4200       332
    15.4400       336
    15.4600       330
    15.4800       346
    15.5000       344
    15.5200       338
    15.5400       336
    15.5600       390
    15.5800       376
    15.6000       366
    15.6200       366
    15.6400       420
    15.6600       418
    15.6800       370
    15.7000       392
    15.7200       408
    15.7400       414
    15.7600       484
    15.7800       430
    15.8000       502
    15.8200       504
    15.8400       560
    15.8600       510
    15.8800       564
    15.9000       596
    15.9200       660
    15.9400       628
    15.9600       678
    15.9800       696
    16.0000       702
    16.0200       748
    16.0400       692
    16.0600       666
    16.0800       648
    16.1000       598
    16.1200       598
    16.1400       596
    16.1600       566
    16.1800       534
    16.2000       516
    16.2200       548
    16.2400       532
    16.2600       538
    16.2800       560
    16.3000       520
    16.3200       548
    16.3400       612
    16.3600       546
    16.3800       566
    16.4000       564
    16.4200       580
    16.4400       566
    16.4600       636
    16.4800       552
    16.5000       648
    16.5200       658
    16.5400       644
    16.5600       690
    16.5800       718
    16.6000       694
    16.6200       702
    16.6400       798
    16.6600       840
    16.6800       862
    16.7000       850
    16.7200       870
    16.7400       932
    16.7600       910
    16.7800      1008
    16.8000       926
    16.8200       960
    16.8400       924
    16.8600       910
    16.8800       898
    16.9000       856
    16.9200       842
    16.9400       750
    16.9600       772
    16.9800       700
    17.0000       614
    17.0200       604
    17.0400       580
    17.0600       508
    17.0800       494
    17.1000       442
    17.1200       456
    17.1400       446
    17.1600       420
    17.1800       414
    17.2000       400
    17.2200       388
    17.2400       342
    17.2600       368
    17.2800       354
    17.3000       388
    17.3200       404
    17.3400       402
    17.3600       376
    17.3800       348
    17.4000       376
    17.4200       392
    17.4400       408
    17.4600       388
    17.4800       374
    17.5000       368
    17.5200       380
    17.5400       396
    17.5600       376
    17.5800       404
    17.6000       436
    17.6200       390
    17.6400       430
    17.6600       386
    17.6800       366
    17.7000       408
    17.7200       394
    17.7400       414
    17.7600       378
    17.7800       424
    17.8000       424
    17.8200       466
    17.8400       454
    17.8600       428
    17.8800       398
    17.9000       430
    17.9200       452
    17.9400       462
    17.9600       474
    17.9800       472
    18.0000       482
    18.0200       504
    18.0400       498
    18.0600       502
    18.0800       484
    18.1000       544
    18.1200       592
    18.1400       524
    18.1600       570
    18.1800       558
    18.2000       588
    18.2200       634
    18.2400       594
    18.2600       644
    18.2800       626
    18.3000       648
    18.3200       638
    18.3400       648
    18.3600       676
    18.3800       686
    18.4000       728
    18.4200       692
    18.4400       712
    18.4600       664
    18.4800       658
    18.5000       654
    18.5200       676
    18.5400       610
    18.5600       618
    18.5800       554
    18.6000       532
    18.6200       496
    18.6400       486
    18.6600       504
    18.6800       466
    18.7000       482
    18.7200       406
    18.7400       444
    18.7600       418
    18.7800       408
    18.8000       390
    18.8200       362
    18.8400       368
    18.8600       372
    18.8800       364
    18.9000       370
    18.9200       344
    18.9400       364
    18.9600       336
    18.9800       334
    19.0000       352
    19.0200       334
    19.0400       336
    19.0600       328
    19.0800       258
    19.1000       300
    19.1200       290
    19.1400       352
    19.1600       290
    19.1800       296
    19.2000       328
    19.2200       286
    19.2400       300
    19.2600       300
    19.2800       292
    19.3000       266
    19.3200       296
    19.3400       298
    19.3600       286
    19.3800       290
    19.4000       280
    19.4200       262
    19.4400       310
    19.4600       250
    19.4800       302
    19.5000       298
    19.5200       288
    19.5400       274
    19.5600       272
    19.5800       248
    19.6000       296
    19.6200       270
    19.6400       300
    19.6600       292
    19.6800       282
    19.7000       294
    19.7200       302
    19.7400       314
    19.7600       320
    19.7800       296
    19.8000       342
    19.8200       320
    19.8400       334
    19.8600       320
    19.8800       326
    19.9000       318
    19.9200       318
    19.9400       328
    19.9600       336
    19.9800       340
    20.0000       356
    20.0200       350
    20.0400       342
    20.0600       344
    20.0800       338
    20.1000       378
    20.1200       330
    20.1400       324
    20.1600       332
    20.1800       348
    20.2000       360
    20.2200       354
    20.2400       418
    20.2600       402
    20.2800       370
    20.3000       418
    20.3200       370
    20.3400       406
    20.3600       404
    20.3800       392
    20.4000       410
    20.4200       420
    20.4400       436
    20.4600       398
    20.4800       436
    20.5000       428
    20.5200       424
    20.5400       432
    20.5600       464
    20.5800       454
    20.6000       430
    20.6200       480
    20.6400       486
    20.6600       448
    20.6800       532
    20.7000       488
    20.7200       494
    20.7400       534
    20.7600       546
    20.7800       560
    20.8000       562
    20.8200       598
    20.8400       596
    20.8600       642
    20.8800       614
    20.9000       634
    20.9200       720
    20.9400       698
    20.9600       706
    20.9800       648
    21.0000       644
    21.0200       660
    21.0400       712
    21.0600       662
    21.0800       622
    21.1000       672
    21.1200       658
    21.1400       618
    21.1600       638
    21.1800       628
    21.2000       618
    21.2200       612
    21.2400       570
    21.2600       566
    21.2800       542
    21.3000       552
    21.3200       548
    21.3400       544
    21.3600       578
    21.3800       554
    21.4000       532
    21.4200       574
    21.4400       548
    21.4600       598
    21.4800       564
    21.5000       538
    21.5200       560
    21.5400       552
    21.5600       590
    21.5800       608
    21.6000       606
    21.6200       624
    21.6400       682
    21.6600       572
    21.6800       684
    21.7000       640
    21.7200       680
    21.7400       618
    21.7600       616
    21.7800       628
    21.8000       616
    21.8200       580
    21.8400       588
    21.8600       574
    21.8800       560
    21.9000       530
    21.9200       550
    21.9400       514
    21.9600       490
    21.9800       474
    22.0000       448
    22.0200       410
    22.0400       416
    22.0600       394
    22.0800       374
    22.1000       348
    22.1200       348
    22.1400       286
    22.1600       320
    22.1800       272
    22.2000       272
    22.2200       262
    22.2400       254
    22.2600       272
    22.2800       238
    22.3000       232
    22.3200       222
    22.3400       212
    22.3600       204
    22.3800       188
    22.4000       196
    22.4200       182
    22.4400       218
    22.4600       194
    22.4800       174
    22.5000       176
    22.5200       168
    22.5400       170
    22.5600       170
    22.5800       178
    22.6000       162
    22.6200       160
    22.6400       182
    22.6600       174
    22.6800       162
    22.7000       140
    22.7200       168
    22.7400       166
    22.7600       172
    22.7800       156
    22.8000       166
    22.8200       138
    22.8400       168
    22.8600       156
    22.8800       146
    22.9000       160
    22.9200       156
    22.9400       164
    22.9600       136
    22.9800       170
    23.0000       166
    23.0200       162
    23.0400       158
    23.0600       126
    23.0800       138
    23.1000       148
    23.1200       134
    23.1400       168
    23.1600       134
    23.1800       160
    23.2000       160
    23.2200       162
    23.2400       162
    23.2600       128
    23.2800       132
    23.3000       130
    23.3200       138
    23.3400       142
    23.3600       140
    23.3800       112
    23.4000       146
    23.4200       146
    23.4400       120
    23.4600       158
    23.4800       154
    23.5000       136
    23.5200       140
    23.5400       150
    23.5600       156
    23.5800       128
    23.6000       130
    23.6200       158
    23.6400       172
    23.6600       136
    23.6800       146
    23.7000       152
    23.7200       114
    23.7400       138
    23.7600       140
    23.7800       130
    23.8000       146
    23.8200       126
    23.8400       136
    23.8600       134
    23.8800       136
    23.9000       168
    23.9200       142
    23.9400       142
    23.9600       154
    23.9800       136
    24.0000       160
    24.0200       144
    24.0400       132
    24.0600       156
    24.0800       146
    24.1000       146
    24.1200       166
    24.1400       160
    24.1600       140
    24.1800       140
    24.2000       152
    24.2200       162
    24.2400       168
    24.2600       126
    24.2800       166
    24.3000       158
    24.3200       168
    24.3400       144
    24.3600       152
    24.3800       144
    24.4000       158
    24.4200       156
    24.4400       154
    24.4600       144
    24.4800       148
    24.5000       156
    24.5200       124
    24.5400       142
    24.5600       150
    24.5800       140
    24.6000       144
    24.6200       154
    24.6400       144
    24.6600       116
    24.6800       130
    24.7000       130
    24.7200       146
    24.7400       166
    24.7600       140
    24.7800       118
    24.8000       144
    24.8200       126
    24.8400       136
    24.8600       138
    24.8800       138
    24.9000       168
    24.9200       156
    24.9400       130
    24.9600       144
    24.9800       138
    25.0000       136
    25.0200       166
    25.0400       152
    25.0600       154
    25.0800       172
    25.1000       178
    25.1200       156
    25.1400       184
    25.1600       194
    25.1800       142
    25.2000       184
    25.2200       158
    25.2400       194
    25.2600       166
    25.2800       158
    25.3000       190
    25.3200       178
    25.3400       164
    25.3600       194
    25.3800       182
    25.4000       174
    25.4200       176
    25.4400       208
    25.4600       180
    25.4800       182
    25.5000       158
    25.5200       164
    25.5400       172
    25.5600       146
    25.5800       148
    25.6000       152
    25.6200       148
    25.6400       128
    25.6600       132
    25.6800       116
    25.7000       116
    25.7200       138
    25.7400       122
    25.7600       126
    25.7800       126
    25.8000       102
    25.8200       112
    25.8400       108
    25.8600        90
    25.8800        98
    25.9000       102
    25.9200       106
    25.9400        96
    25.9600        88
    25.9800       108
    26.0000       108
    26.0200        98
    26.0400        90
    26.0600       102
    26.0800       116
    26.1000       120
    26.1200       100
    26.1400        94
    26.1600       100
    26.1800        90
    26.2000       104
    26.2200        94
    26.2400        96
    26.2600        88
    26.2800        78
    26.3000        94
    26.3200        98
    26.3400        92
    26.3600        92
    26.3800       104
    26.4000        96
    26.4200       104
    26.4400       118
    26.4600        90
    26.4800        94
    26.5000       102
    26.5200       120
    26.5400        94
    26.5600        86
    26.5800        92
    26.6000        92
    26.6200       106
    26.6400        96
    26.6600        94
    26.6800       110
    26.7000       126
    26.7200        92
    26.7400       106
    26.7600       106
    26.7800       110
    26.8000       116
    26.8200       114
    26.8400       108
    26.8600       122
    26.8800       106
    26.9000       124
    26.9200        96
    26.9400       114
    26.9600       130
    26.9800       116
    27.0000       108
    27.0200       114
    27.0400        94
    27.0600       120
    27.0800       100
    27.1000       134
    27.1200       106
    27.1400       106
    27.1600       120
    27.1800       106
    27.2000       118
    27.2200        94
    27.2400       104
    27.2600       134
    27.2800       106
    27.3000       104
    27.3200       112
    27.3400       132
    27.3600       112
    27.3800       122
    27.4000       106
    27.4200       114
    27.4400       124
    27.4600       114
    27.4800       100
    27.5000       104
    27.5200       122
    27.5400       104
    27.5600       130
    27.5800       106
    27.6000       110
    27.6200       112
    27.6400       102
    27.6600       114
    27.6800       102
    27.7000       118
    27.7200       120
    27.7400       132
    27.7600       136
    27.7800       116
    27.8000       118
    27.8200       118
    27.8400       120
    27.8600       114
    27.8800       128
    27.9000       120
    27.9200       132
    27.9400       116
    27.9600       116
    27.9800       116
    28.0000       128
    28.0200       124
    28.0400       148
    28.0600       136
    28.0800       126
    28.1000       114
    28.1200       136
    28.1400       136
    28.1600       114
    28.1800       144
    28.2000       142
    28.2200       132
    28.2400       140
    28.2600       122
    28.2800       144
    28.3000       154
    28.3200       142
    28.3400       166
    28.3600       122
    28.3800       126
    28.4000       146
    28.4200       132
    28.4400       138
    28.4600       130
    28.4800       124
    28.5000       128
    28.5200       110
    28.5400       128
    28.5600       116
    28.5800       138
    28.6000       112
    28.6200       116
    28.6400       140
    28.6600       116
    28.6800       132
    28.7000       106
    28.7200       120
    28.7400        88
    28.7600       110
    28.7800       114
    28.8000       124
    28.8200       112
    28.8400       112
    28.8600       108
    28.8800       104
    28.9000       122
    28.9200       106
    28.9400       102
    28.9600       106
    28.9800       104
    29.0000       104
    29.0200       106
    29.0400       100
    29.0600       114
    29.0800       114
    29.1000       108
    29.1200       102
    29.1400       100
    29.1600        92
    29.1800       112
    29.2000       112
    29.2200        92
    29.2400       106
    29.2600        84
    29.2800        90
    29.3000        96
    29.3200        98
    29.3400        96
    29.3600        82
    29.3800        94
    29.4000        98
    29.4200       108
    29.4400        82
    29.4600        92
    29.4800        68
    29.5000        84
    29.5200        86
    29.5400       102
    29.5600       100
    29.5800        86
    29.6000        84
    29.6200        98
    29.6400        88
    29.6600        70
    29.6800        74
    29.7000        70
    29.7200        88
    29.7400        88
    29.7600       108
    29.7800        78
    29.8000        76
    29.8200        94
    29.8400        76
    29.8600        80
    29.8800        78
    29.9000        62
    29.9200        70
    29.9400        84
    29.9600        76
    29.9800        76
    30.0000        76
    30.0200        78
    30.0400        80
    30.0600        76
    30.0800        80
    30.1000        82
    30.1200        90
    30.1400        78
    30.1600        84
    30.1800        64
    30.2000        80
    30.2200        82
    30.2400        78
    30.2600        88
    30.2800        70
    30.3000        84
    30.3200        78
    30.3400        70
    30.3600        68
    30.3800        94
    30.4000        76
    30.4200        80
    30.4400        68
    30.4600        94
    30.4800        86
    30.5000        78
    30.5200        94
    30.5400       100
    30.5600        80
    30.5800        86
    30.6000        80
    30.6200        88
    30.6400        74
    30.6600        80
    30.6800        62
    30.7000        84
    30.7200        90
    30.7400       110
    30.7600        56
    30.7800        86
    30.8000        68
    30.8200        68
    30.8400        80
    30.8600        74
    30.8800        86
    30.9000        68
    30.9200        94
    30.9400        76
    30.9600        76
    30.9800        80
    31.0000        76
    31.0200        90
    31.0400        84
    31.0600        74
    31.0800        92
    31.1000        78
    31.1200        88
    31.1400        86
    31.1600        88
    31.1800        78
    31.2000        84
    31.2200        82
    31.2400        82
    31.2600        82
    31.2800        80
    31.3000       100
    31.3200        62
    31.3400        82
    31.3600        86
    31.3800        82
    31.4000        96
    31.4200        78
    31.4400        76
    31.4600        76
    31.4800        76
    31.5000        82
    31.5200        70
    31.5400        76
    31.5600        84
    31.5800        84
    31.6000        84
    31.6200        56
    31.6400        80
    31.6600        78
    31.6800        60
    31.7000       108
    31.7200        70
    31.7400        76
    31.7600        84
    31.7800        80
    31.8000        96
    31.8200        96
    31.8400        78
    31.8600        78
    31.8800        70
    31.9000        78
    31.9200        98
    31.9400        92
    31.9600        74
    31.9800        92
    32.0000        78
    32.0200        80
    32.0400        76
    32.0600        96
    32.0800        84
    32.1000        78
    32.1200        88
    32.1400        74
    32.1600        86
    32.1800        78
    32.2000        80
    32.2200        84
    32.2400       100
    32.2600        98
    32.2800        80
    32.3000        64
    32.3200        86
    32.3400        84
    32.3600        86
    32.3800        84
    32.4000        80
    32.4200        84
    32.4400       106
    32.4600        84
    32.4800        84
    32.5000        90
    32.5200       100
    32.5400        94
    32.5600        90
    32.5800        96
    32.6000        96
    32.6200        76
    32.6400        96
    32.6600        84
    32.6800        88
    32.7000        70
    32.7200        92
    32.7400        92
    32.7600        94
    32.7800        90
    32.8000        82
    32.8200        86
    32.8400       102
    32.8600        86
    32.8800       104
    32.9000        86
    32.9200       112
    32.9400        82
    32.9600        90
    32.9800        90
    33.0000       102
    33.0200        96
    33.0400        98
    33.0600        98
    33.0800        78
    33.1000       102
    33.1200       102
    33.1400        86
    33.1600       104
    33.1800        86
    33.2000       120
    33.2200        80
    33.2400        78
    33.2600        94
    33.2800        82
    33.3000        86
    33.3200       114
    33.3400        90
    33.3600        96
    33.3800        90
    33.4000       112
    33.4200        96
    33.4400        80
    33.4600        76
    33.4800        84
    33.5000        92
    33.5200        86
    33.5400        96
    33.5600        88
    33.5800        92
    33.6000        94
    33.6200       108
    33.6400        84
    33.6600        92
    33.6800        74
    33.7000        82
    33.7200        66
    33.7400        90
    33.7600        70
    33.7800        72
    33.8000        80
    33.8200        76
    33.8400        92
    33.8600        76
    33.8800        88
    33.9000        72
    33.9200        90
    33.9400        88
    33.9600        76
    33.9800        68
    34.0000        90
    34.0200        80
    34.0400        98
    34.0600        70
    34.0800        76
    34.1000        78
    34.1200        98
    34.1400        72
    34.1600        76
    34.1800        88
    34.2000        90
    34.2200        74
    34.2400        90
    34.2600        70
    34.2800        78
    34.3000        74
    34.3200        78
    34.3400        84
    34.3600        92
    34.3800        88
    34.4000        86
    34.4200        98
    34.4400        88
    34.4600        76
    34.4800        96
    34.5000        86
    34.5200        78
    34.5400        80
    34.5600        84
    34.5800        84
    34.6000        82
    34.6200        80
    34.6400        88
    34.6600       102
    34.6800        94
    34.7000        96
    34.7200        98
    34.7400        96
    34.7600        92
    34.7800        82
    34.8000        94
    34.8200       110
    34.8400        88
    34.8600        94
    34.8800        94
    34.9000        90
    34.9200        74
    34.9400        92
    34.9600        96
    34.9800        76
    35.0000        96
    35.0200        86
    35.0400        80
    35.0600        62
    35.0800        78
    35.1000        84
    35.1200        90
    35.1400        80
    35.1600        86
    35.1800       106
    35.2000        82
    35.2200        86
    35.2400        74
    35.2600        84
    35.2800        84
    35.3000        80
    35.3200        82
    35.3400        88
    35.3600        88
    35.3800        92
    35.4000        88
    35.4200        84
    35.4400        90
    35.4600        90
    35.4800        74
    35.5000        76
    35.5200        82
    35.5400        86
    35.5600        88
    35.5800        78
    35.6000        88
    35.6200        66
    35.6400        92
    35.6600        84
    35.6800        92
    35.7000        82
    35.7200        80
    35.7400        60
    35.7600        78
    35.7800        80
    35.8000        88
    35.8200        84
    35.8400        90
    35.8600        82
    35.8800        86
    35.9000        98
    35.9200        84
    35.9400        70
    35.9600        78
    35.9800        96
    36.0000        90
    36.0200        82
    36.0400        86
    36.0600        84
    36.0800        90
    36.1000        92
    36.1200        82
    36.1400        92
    36.1600        98
    36.1800        76
    36.2000        82
    36.2200        88
    36.2400        98
    36.2600        90
    36.2800        80
    36.3000        90
    36.3200        84
    36.3400        90
    36.3600        82
    36.3800        90
    36.4000        72
    36.4200       102
    36.4400        84
    36.4600        88
    36.4800        86
    36.5000        82
    36.5200        74
    36.5400        92
    36.5600       106
    36.5800        76
    36.6000        88
    36.6200        84
    36.6400        84
    36.6600        88
    36.6800        88
    36.7000       112
    36.7200        90
    36.7400        96
    36.7600        94
    36.7800        98
    36.8000        88
    36.8200       110
    36.8400       108
    36.8600        86
    36.8800        90
    36.9000        94
    36.9200        96
    36.9400       102
    36.9600        92
    36.9800        78
    37.0000        94
    37.0200       102
    37.0400        84
    37.0600       104
    37.0800        82
    37.1000       102
    37.1200       106
    37.1400        66
    37.1600        92
    37.1800        84
    37.2000        80
    37.2200       104
    37.2400        78
    37.2600        90
    37.2800        80
    37.3000        88
    37.3200        92
    37.3400        78
    37.3600        88
    37.3800        76
    37.4000        84
    37.4200        98
    37.4400       106
    37.4600        84
    37.4800       102
    37.5000        90
    37.5200        94
    37.5400        80
    37.5600        90
    37.5800        80
    37.6000        86
    37.6200        94
    37.6400        72
    37.6600        92
    37.6800        86
    37.7000        74
    37.7200        90
    37.7400        80
    37.7600        88
    37.7800        88
    37.8000        98
    37.8200        74
    37.8400        74
    37.8600        82
    37.8800        74
    37.9000        78
    37.9200        76
    37.9400        94
    37.9600        92
    37.9800        72
    38.0000        94
    38.0200        86
    38.0400        96
    38.0600        78
    38.0800        76
    38.1000        68
    38.1200        68
    38.1400        84
    38.1600        86
    38.1800        82
    38.2000        90
    38.2200        82
    38.2400        66
    38.2600        94
    38.2800        90
    38.3000        86
    38.3200        64
    38.3400        88
    38.3600        78
    38.3800        82
    38.4000        78
    38.4200        86
    38.4400        84
    38.4600        90
    38.4800        82
    38.5000        86
    38.5200        88
    38.5400        84
    38.5600       104
    38.5800        90
    38.6000        88
    38.6200        80
    38.6400        94
    38.6600        86
    38.6800        96
    38.7000        94
    38.7200        86
    38.7400        86
    38.7600        84
    38.7800        88
    38.8000        78
    38.8200        82
    38.8400       102
    38.8600        72
    38.8800        90
    38.9000        90
    38.9200        80
    38.9400        76
    38.9600        86
    38.9800        84
    39.0000        88
    39.0200        84
    39.0400        78
    39.0600        88
    39.0800        70
    39.1000        98
    39.1200        80
    39.1400        96
    39.1600        94
    39.1800        84
    39.2000        92
    39.2200        72
    39.2400        86
    39.2600       104
    39.2800        88
    39.3000        92
    39.3200        68
    39.3400        70
    39.3600        78
    39.3800        80
    39.4000        90
    39.4200        86
    39.4400        82
    39.4600        72
    39.4800        88
    39.5000        78
    39.5200        84
    39.5400        96
    39.5600        80
    39.5800       102
    39.6000        98
    39.6200        76
    39.6400        72
    39.6600        84
    39.6800        80
    39.7000        76
    39.7200        88
    39.7400        88
    39.7600        76
    39.7800        88
    39.8000        90
    39.8200        76
    39.8400        92
    39.8600        88
    39.8800        90
    39.9000        90
    39.9200        94
    39.9400        78
    39.9600        90
    39.9800        68
    40.0000        88